File: data/MoS2 sonication series DMF UV-vis.csv
Wavelength (nm),14k,11k,8k,5k,3k
190,-1.77E-02,4.91E-03,5.82E-04,-1.02E-02,2.05E-02
191,-1.08E-02,1.09E-02,4.69E-03,-1.66E-02,0.0187863
192,-1.57E-02,1.04E-02,1.22E-02,-0.006433971,8.17E-03
193,-2.32E-02,-1.08E-03,6.79E-03,-0.0103812,6.08E-03
194,-2.67E-02,1.87E-02,1.34E-02,9.08E-03,1.72E-02
195,-2.96E-02,1.50E-02,3.61E-03,7.56E-03,-5.64E-03
196,-1.50E-02,2.81E-02,1.98E-02,1.99E-02,1.00E-02
197,-2.22E-02,2.65E-02,1.42E-02,2.27E-02,1.80E-02
198,-2.02E-02,3.99E-02,2.25E-02,3.35E-02,1.74E-02
199,-1.51E-02,2.73E-02,1.81E-02,3.46E-02,9.45E-03
200,-2.59E-02,8.61E-03,5.49E-03,1.86E-02,-2.68E-03
201,-3.16E-03,2.47E-02,1.90E-02,3.13E-02,8.93E-03
202,-2.54E-03,2.44E-02,1.23E-02,0.0221212,3.28E-02
203,2.67E-02,2.64E-02,0.025757,4.22E-02,0.06504925
204,3.97E-02,2.23E-02,1.88E-02,3.25E-02,5.45E-02
205,4.91E-02,1.02E-02,2.98E-02,4.19E-02,0.0344396
206,3.91E-02,6.92E-03,2.50E-02,2.05E-02,2.43E-02
207,2.41E-02,4.45E-03,9.87E-03,2.21E-02,1.68E-02
208,2.92E-02,1.15E-02,1.00E-02,1.67E-02,2.96E-02
209,0.0295984,1.74E-02,1.41E-02,2.52E-02,3.10E-02
210,2.66E-02,1.09E-02,8.15E-03,2.32E-02,2.44E-02
211,2.72E-02,8.87E-03,1.24E-02,2.25E-02,2.68E-02
212,2.35E-02,4.58E-03,8.70E-03,2.19E-02,2.79E-02
213,1.46E-02,1.80E-03,7.52E-03,1.95E-02,2.53E-02
214,1.31E-02,-9.34E-04,6.34E-03,1.39E-02,0.0213509
215,1.09E-02,-1.09E-03,6.97E-03,0.0127204,2.19E-02
216,6.30E-03,-3.23E-03,1.57E-03,6.58E-03,1.80E-02
217,5.09E-03,-4.23E-03,-8.73E-04,4.56E-03,1.23E-02
218,4.04E-03,-3.48E-03,3.48E-04,3.54E-03,1.41E-02
219,7.20E-03,-4.49E-03,1.07E-03,6.60E-03,1.35E-02
220,4.89E-03,7.44E-04,0.002887592,6.71E-03,1.65E-02
221,5.84E-03,4.08E-03,7.83E-03,1.18E-02,1.80E-02
222,4.35E-03,3.25E-03,1.02E-02,0.0136488,1.76E-02
223,2.38E-03,2.94E-03,7.53E-03,1.15E-02,1.41E-02
224,1.25E-03,2.43E-03,7.87E-03,1.00E-02,0.0157105
225,1.45E-03,2.09E-03,5.00E-03,7.57E-03,0.0135544
226,1.64E-03,-1.01E-03,5.43E-03,7.59E-03,1.49E-02
227,1.86E-03,2.30E-04,4.17E-03,8.15E-03,1.47E-02
228,-2.12E-04,-2.10E-03,3.26E-03,7.30E-03,1.38E-02
229,-1.61E-03,-2.05E-03,3.81E-03,7.56E-03,1.32E-02
230,-7.43E-04,-1.84E-03,4.42E-03,9.73E-03,1.37E-02
231,7.98E-04,-1.02E-03,4.56E-03,1.12E-02,1.44E-02
232,4.87E-04,-1.17E-03,5.10E-03,1.18E-02,0.0150201
233,2.00E-03,-1.35E-03,6.21E-03,1.29E-02,1.62E-02
234,2.27E-03,-1.50E-03,5.53E-03,1.20E-02,1.51E-02
235,4.20E-04,-2.29E-03,5.51E-03,1.13E-02,1.49E-02
236,2.78E-05,-2.94E-03,4.80E-03,1.03E-02,1.43E-02
237,4.68E-04,-2.49E-03,6.37E-03,0.0111733,1.53E-02
238,-3.89E-04,-1.29E-03,6.67E-03,1.04E-02,1.53E-02
239,-4.69E-04,-5.02E-04,8.45E-03,0.0109087,1.57E-02
240,-1.33E-03,-1.47E-03,6.89E-03,8.32E-03,1.55E-02
241,-1.67E-03,-4.24E-04,5.61E-03,7.47E-03,0.0129972
242,-1.90E-03,-1.02E-03,5.77E-03,5.87E-03,9.93E-03
243,-1.56E-03,7.56E-04,5.20E-03,5.62E-03,8.94E-03
244,-2.85E-03,-1.21E-03,4.20E-03,4.42E-03,7.90E-03
245,-3.36E-03,5.84E-04,3.44E-03,4.10E-03,7.08E-03
246,-9.98E-04,1.36E-03,3.46E-03,5.38E-03,7.32E-03
247,-1.87E-03,8.44E-04,3.99E-03,4.51E-03,9.06E-03
248,-2.49E-03,1.39E-03,4.11E-03,4.90E-03,8.19E-03
249,-2.78E-03,-8.01E-05,3.01E-03,3.17E-03,7.35E-03
250,-2.56E-03,1.02E-03,2.76E-03,3.39E-03,8.89E-03
251,-3.22E-03,-9.25E-04,1.59E-03,2.53E-03,7.25E-03
252,-3.32E-03,-7.39E-06,1.03E-03,2.39E-03,7.81E-03
253,-2.54E-03,-1.61E-03,8.69E-04,7.61E-04,7.35E-03
254,-3.97E-03,-2.23E-03,-5.09E-05,6.07E-04,6.02E-03
255,-3.91E-03,-2.34E-03,-2.13E-04,-6.00E-05,5.90E-03
256,-2.18E-03,-1.76E-03,-7.02E-05,-9.48E-05,5.84E-03
257,-3.93E-03,-3.18E-03,-1.17E-03,-1.21E-03,4.36E-03
258,-2.00E-03,-1.32E-03,5.70E-04,5.14E-04,6.34E-03
259,1.14E-03,7.84E-04,2.40E-03,2.97E-03,6.86E-03
260,9.79E-03,8.78E-03,9.98E-03,1.06E-02,1.38E-02
261,3.66E-02,3.54E-02,3.56E-02,3.59E-02,3.38E-02
262,8.37E-02,8.00E-02,7.83E-02,7.93E-02,6.70E-02
263,0.147792,0.141231,0.134488,0.138376,0.111567
264,0.215646,0.205403,0.192577,0.200333,0.155222
265,0.278379,0.261831,0.245285,0.256183,0.192565
266,0.331349,0.309664,0.288702,0.302498,0.223002
267,0.371269,0.345943,0.321267,0.337733,0.245847
268,0.402625,0.37483,0.345154,0.364144,0.26229
269,0.426559,0.394798,0.362803,0.384267,0.274791
270,0.443993,0.409289,0.376177,0.39838,0.282748
271,0.45841,0.420684,0.385489,0.411071,0.290401
272,0.470021,0.429372,0.394498,0.420051,0.295537
273,0.477229,0.436395,0.399597,0.427025,0.299419
274,0.480334,0.4384,0.402514,0.430367,0.301784
275,0.482242,0.438663,0.404781,0.431175,0.302941
276,0.481222,0.437847,0.40335,0.431366,0.303439
277,0.480237,0.435521,0.401556,0.431063,0.302784
278,0.477516,0.432325,0.39892,0.429124,0.301892
279,0.47536,0.430375,0.397576,0.42762,0.301488
280,0.475082,0.429976,0.397114,0.42885,0.301258
281,0.476492,0.429848,0.397382,0.429363,0.303112
282,0.477782,0.43033,0.397541,0.43147,0.303678
283,0.478133,0.429553,0.398449,0.431248,0.304327
284,0.478153,0.428946,0.398047,0.431978,0.304601
285,0.478538,0.428516,0.39789,0.432531,0.305259
286,0.478669,0.428589,0.397486,0.433118,0.306117
287,0.478622,0.426915,0.396698,0.433572,0.306237
288,0.477438,0.426419,0.396425,0.433303,0.306123
289,0.476341,0.425239,0.39547,0.432593,0.306206
290,0.475765,0.424027,0.395247,0.43346,0.307121
291,0.4758,0.42353,0.394703,0.434683,0.307098
292,0.476341,0.422913,0.394303,0.434901,0.307304
293,0.476393,0.423073,0.394795,0.435211,0.307491
294,0.477747,0.42364,0.394917,0.435846,0.307239
295,0.479132,0.424284,0.395717,0.437926,0.309052
296,0.479772,0.424172,0.396594,0.43907,0.310375
297,0.480287,0.425004,0.397051,0.440321,0.311407
298,0.481108,0.42541,0.396729,0.440716,0.312532
299,0.482604,0.426926,0.398114,0.442158,0.313129
300,0.484669,0.428193,0.399281,0.445774,0.313539
301,0.485606,0.428957,0.400283,0.446511,0.315004
302,0.48686,0.428672,0.4018,0.448807,0.315373
303,0.48695,0.428975,0.403077,0.448974,0.316486
304,0.487417,0.430013,0.402323,0.449309,0.317467
305,0.488959,0.429162,0.404454,0.452835,0.318415
306,0.489558,0.431721,0.404848,0.455154,0.320315
307,0.491965,0.43291,0.406463,0.45868,0.320772
308,0.494712,0.434338,0.408752,0.4600871,0.322019
309,0.493059,0.433721,0.407394,0.460552,0.321729
310,0.491654,0.432359,0.407547,0.460327,0.322035
311,0.491068,0.43338,0.406146,0.45952,0.321914
312,0.490506,0.431264,0.406433,0.460576,0.322238
313,0.491034,0.431167,0.406521,0.462807,0.322667
314,0.489553,0.431691,0.40839,0.462592,0.323965
315,0.490873,0.4317,0.407372,0.46317,0.323461
316,0.491043,0.432228,0.40813,0.464231,0.325057
317,0.490724,0.432167,0.408579,0.465787,0.32571
318,0.491356,0.431447,0.4087218,0.466247,0.325865
319,0.491063,0.432346,0.408794,0.468406,0.3271328
320,0.490841,0.433118,0.409465,0.469521,0.327267
321,0.491726,0.43297,0.410775,0.470521,0.328018
322,0.492328,0.432726,0.409426,0.471485,0.328568
323,0.492105,0.432532,0.409959,0.473006,0.329113
324,0.491757,0.43183,0.410894,0.473182,0.329326
325,0.491707,0.432177,0.409594,0.473854,0.329293
326,0.490926,0.432391,0.410969,0.474409,0.3304312
327,0.490086,0.43131,0.409135,0.474028,0.33011
328,0.48969,0.431132,0.409987,0.474785,0.330819
329,0.488483,0.429838,0.408682,0.473991,0.329443
330,0.487853,0.428509,0.408731,0.474372,0.329715
331,0.488504,0.42798,0.408977,0.473857,0.329936
332,0.487081,0.427318,0.406762,0.474502,0.330392
333,0.484284,0.425047,0.406775,0.473847,0.329791
334,0.4848949,0.425097,0.406098,0.473608,0.330402
335,0.4823,0.425513,0.404795,0.473868,0.329669
336,0.481959,0.423065,0.404673,0.474032,0.330169
337,0.480927,0.423189,0.404579,0.473221,0.329988
338,0.479612,0.42089,0.404322,0.474953,0.329476
339,0.479507,0.420642,0.403337,0.475794,0.329994
340,0.479953,0.421076,0.403049,0.476142,0.330864
341,0.478124,0.423427,0.402489,0.474524,0.331086
342,0.47701,0.420374,0.403058,0.476238,0.332563
343,0.478347,0.419332,0.403473,0.476479,0.330394
344,0.478161,0.418704,0.403075,0.476828,0.332337
345,0.477229,0.419233,0.402626,0.478001,0.33168
346,0.479626,0.419542,0.403339,0.477744,0.33213
347,0.481814,0.422324,0.403789,0.478778,0.333886
348,0.481852,0.422333,0.403809,0.479303,0.335077
349,0.481615,0.422369,0.403037,0.479415,0.334525
350,0.482963,0.424844,0.406084,0.481927,0.335885
351,0.487391,0.426596,0.407485,0.485987,0.335195
352,0.486987,0.425972,0.410306,0.485658,0.335507
353,0.487482,0.427531,0.409651,0.485641,0.33775
354,0.492774,0.431773,0.411149,0.486971,0.33689
355,0.49291,0.433307,0.412391,0.489424,0.339914
356,0.493179,0.435664,0.413467,0.487829,0.338449
357,0.496505,0.436723,0.419535,0.493241,0.340769
358,0.499813,0.439914,0.421254,0.495613,0.341936
359,0.502583,0.441171,0.423678,0.498146,0.341892
360,0.50641,0.443384,0.425702,0.499122,0.343825
361,0.507595,0.447015,0.426925,0.500923,0.344232
362,0.511289,0.450726,0.429741,0.504664,0.346053
363,0.514145,0.45572,0.434524,0.507875,0.346938
364,0.51864,0.457147,0.43699,0.509739,0.348707
365,0.521105,0.459018,0.437995,0.514962,0.349416
366,0.525084,0.465749,0.442171,0.514878,0.350892
367,0.529839,0.467941,0.447226,0.518225,0.353219
368,0.533756,0.468562,0.44832,0.522484,0.353932
369,0.533131,0.472972,0.450758,0.521242,0.35374
370,0.537209,0.478504,0.45474,0.525987,0.356304
371,0.541698,0.48166,0.45839,0.526709,0.3571
372,0.546416,0.482396,0.460327,0.53089,0.359846
373,0.547386,0.484792,0.464567,0.53596,0.361613
374,0.552364,0.4884,0.465984,0.53665,0.362346
375,0.553756,0.49516,0.47209,0.539407,0.363308
376,0.558421,0.496378,0.474587,0.543122,0.364325
377,0.561666,0.501705,0.475136,0.546385,0.367051
378,0.567138,0.503295,0.480803,0.55155,0.368588
379,0.571371,0.510381,0.486757,0.55349,0.371775
380,0.57647,0.514385,0.489912,0.55783,0.373491
381,0.575761,0.514785,0.490575,0.557821,0.37268
382,0.57927,0.519057,0.495785,0.562307,0.375651
383,0.583179,0.522609,0.498475,0.566047,0.377195
384,0.582782,0.523334,0.498713,0.564947,0.377103
385,0.581196,0.522043,0.499314,0.564027,0.376507
386,0.579783,0.521746,0.498419,0.561853,0.375423
387,0.579706,0.521171,0.49921,0.562385,0.37484
388,0.583344,0.525291,0.502931,0.566317,0.377407
389,0.584568,0.5267976,0.504006,0.566502,0.377702
390,0.581903,0.524479,0.502911,0.564562,0.376995
391,0.586814,0.529269,0.507852,0.569809,0.379516
392,0.591091,0.534303,0.511117,0.574148,0.382178
393,0.597472,0.540149,0.517728,0.579756,0.385681
394,0.589445,0.534322,0.511957,0.574374,0.381306
395,0.587642,0.532936,0.512067,0.573565,0.381494
396,0.592291,0.538114,0.517431,0.577712,0.383577
397,0.59366,0.539379,0.517865,0.580884,0.386261
398,0.599226,0.545247,0.523557,0.586261,0.388895
399,0.599832,0.544852,0.524854,0.587296,0.389558
400,0.588577,0.535075,0.516643,0.576489,0.383545
401,0.593167,0.538097,0.51932,0.582563,0.387285
402,0.596716,0.545383,0.524189,0.585826,0.390758
403,0.598872,0.546608,0.526808,0.588403,0.391247
404,0.605431,0.551073,0.532208,0.59434,0.394648
405,0.610831,0.555271,0.535404,0.598895,0.39769
406,0.610853,0.555287,0.53739,0.601406,0.398451
407,0.604384,0.548713,0.532419,0.596338,0.394987
408,0.608548,0.555853,0.536885,0.601124,0.399079
409,0.619063,0.564142,0.546311,0.610394,0.405045
410,0.618003,0.56278,0.54527,0.612049,0.404663
411,0.612623,0.557782,0.540584,0.608725,0.40305
412,0.617208,0.56154,0.544478,0.610709,0.404342
413,0.620192,0.563485,0.546865,0.617957,0.40855
414,0.622936,0.566917,0.549601,0.617548,0.407905
415,0.616297,0.562869,0.545452,0.615637,0.407094
416,0.620329,0.564074,0.550232,0.617814,0.410192
417,0.621117,0.567952,0.5532321,0.62284,0.413298
418,0.62326,0.567198,0.553625,0.621364,0.411036
419,0.625625,0.569169,0.555687,0.626383,0.413399
420,0.628962,0.572372,0.556433,0.629367,0.414794
421,0.629705,0.57471,0.561717,0.633659,0.41853
422,0.633407,0.577439,0.564838,0.639727,0.420276
423,0.62376,0.57024,0.557542,0.631121,0.415345
424,0.622843,0.567875,0.554628,0.628014,0.415781
425,0.629698,0.573689,0.561994,0.635302,0.420995
426,0.626188,0.572372,0.561948,0.635097,0.41979
427,0.630395,0.57304,0.564528,0.636846,0.421017
428,0.635458,0.580135,0.57184,0.647021,0.424525
429,0.633381,0.577775,0.569093,0.643225,0.423875
430,0.645863,0.590638,0.579978,0.655274,0.43203
431,0.641795,0.58499,0.574727,0.648547,0.428314
432,0.624531,0.571888,0.562524,0.63469,0.42077
433,0.631935,0.577285,0.571042,0.643294,0.426038
434,0.651828,0.594503,0.58835,0.665283,0.436257
435,0.638298,0.58604,0.577692,0.652783,0.430596
436,0.634261,0.583992,0.575383,0.648966,0.429572
437,0.646521,0.593811,0.585832,0.663304,0.434598
438,0.641472,0.590522,0.585475,0.661308,0.43373
439,0.646378,0.593965,0.589952,0.664934,0.436897
440,0.643128,0.592348,0.588576,0.662364,0.436476
441,0.646417,0.595577,0.592176,0.66756,0.439099
442,0.652581,0.600285,0.595849,0.675492,0.442551
443,0.638388,0.588213,0.586056,0.660544,0.4355542
444,0.643812,0.593456,0.591459,0.66673,0.439724
445,0.638863,0.589715,0.589832,0.664304,0.437875
446,0.638549,0.590912,0.591136,0.664131,0.438535
447,0.642088,0.594636,0.595873,0.671475,0.442271
448,0.637052,0.590841,0.593219,0.668996,0.442114
449,0.638199,0.592064,0.595653,0.672852,0.442819
450,0.639239,0.594851,0.598792,0.675217,0.444771
451,0.634725,0.590008,0.596581,0.673014,0.444153
452,0.633993,0.589686,0.597392,0.67363,0.445108
453,0.632185,0.590217,0.59896,0.676262,0.446351
454,0.627939,0.58637,0.597721,0.673747,0.445709
455,0.630615,0.588689,0.602227,0.68026,0.449833
456,0.628377,0.588564,0.602397,0.681505,0.450589
457,0.620789,0.582325,0.598128,0.677097,0.448952
458,0.621152,0.583556,0.601873,0.683124,0.451621
459,0.615126,0.578568,0.598154,0.678278,0.45108
460,0.609896,0.574924,0.595756,0.678029,0.450008
461,0.604697,0.570916,0.59215,0.675563,0.449467
462,0.599775,0.566079,0.590084,0.673035,0.448462
463,0.593809,0.560909,0.587113,0.669538,0.447272
464,0.59771,0.567042,0.597664,0.682684,0.454481
465,0.591016,0.562013,0.591316,0.6793632,0.45315
466,0.583419,0.556936,0.588631,0.677024,0.453419
467,0.569825,0.542605,0.576189,0.662853,0.446137
468,0.566034,0.5407,0.57598,0.66379,0.446885
469,0.566765,0.543324,0.582243,0.669955,0.450361
470,0.559978,0.537256,0.577224,0.668185,0.450163
471,0.557319,0.536959,0.579639,0.672885,0.452391
472,0.552659,0.533964,0.580641,0.673682,0.453266
473,0.547316,0.529323,0.578739,0.672833,0.45431
474,0.540625,0.52522,0.572527,0.669846,0.455134
475,0.533235,0.517991,0.569552,0.666923,0.452637
476,0.527901,0.513521,0.566934,0.667305,0.45322
477,0.515822,0.504205,0.559461,0.658045,0.447596
478,0.512594,0.502188,0.559853,0.661461,0.450884
479,0.507837,0.499385,0.558177,0.662126,0.451948
480,0.498537,0.490562,0.552036,0.656472,0.449583
481,0.496004,0.488491,0.552514,0.661552,0.451588
482,0.487751,0.481506,0.547626,0.657607,0.450519
483,0.480367,0.476098,0.543916,0.655868,0.449735
484,0.473146,0.46995,0.539897,0.653583,0.449058
485,0.46622,0.463984,0.535839,0.651005,0.448337
486,0.459195,0.458321,0.531849,0.648484,0.447554
487,0.452044,0.452692,0.527849,0.646106,0.446992
488,0.445784,0.446858,0.5239348,0.6437,0.446428
489,0.439098,0.441284,0.520513,0.640914,0.445578
490,0.432261,0.435925,0.516894,0.63861,0.444888
491,0.42587,0.430424,0.513093,0.636636,0.4439509
492,0.420702,0.425263,0.510188,0.635943,0.445516
493,0.414995,0.420511,0.505761,0.6332,0.444353
494,0.408824,0.41479,0.502829,0.632092,0.445227
495,0.402039,0.407856,0.498016,0.629515,0.444087
496,0.395948,0.40396,0.493858,0.630876,0.443858
497,0.391324,0.399158,0.492,0.629483,0.444734
498,0.381557,0.389506,0.482039,0.618608,0.439074
499,0.378699,0.387746,0.48237,0.624029,0.441849
500,0.3744,0.382743,0.480253,0.624523,0.443145
501,0.367838,0.376215,0.47303,0.618754,0.439977
502,0.362997,0.372289,0.470071,0.617362,0.440854
503,0.357367,0.366769,0.466078,0.615512,0.440633
504,0.352204,0.362496,0.461445,0.612318,0.438936
505,0.3454437,0.356369,0.455607,0.608035,0.437448
506,0.343754,0.353184,0.453649,0.610712,0.439589
507,0.338443,0.348404,0.450482,0.607774,0.437653
508,0.333623,0.343291,0.445014,0.60397,0.436515
509,0.330058,0.341159,0.444079,0.603654,0.438806
510,0.325133,0.335609,0.438206,0.599751,0.436716
511,0.322011,0.333072,0.435277,0.600436,0.436572
512,0.317749,0.327171,0.430993,0.5965,0.434872
513,0.313995,0.32404,0.428055,0.594086,0.434708
514,0.310367,0.320301,0.424124,0.592783,0.434558
515,0.3064568,0.316447,0.42047,0.590225,0.433047
516,0.304227,0.312917,0.417804,0.588721,0.433915
517,0.300377,0.309792,0.415202,0.588556,0.433084
518,0.295448,0.305702,0.409297,0.584018,0.430401
519,0.293326,0.302982,0.407591,0.583199,0.431308
520,0.289326,0.299783,0.40282,0.580399,0.430512
521,0.286136,0.296009,0.399624,0.575934,0.428081
522,0.284185,0.293734,0.397454,0.575895,0.42921
523,0.28105,0.290091,0.394451,0.575095,0.428348
524,0.278195,0.287602,0.391292,0.573923,0.428821
525,0.275542,0.284386,0.387727,0.570267,0.427657
526,0.273059,0.281972,0.38459,0.568299,0.427144
527,0.270412,0.27825,0.381756,0.566872,0.42614
528,0.267014,0.276331,0.377542,0.563397,0.424639
529,0.265462,0.274098,0.376635,0.563427,0.426068
530,0.262833,0.27085,0.371783,0.55997,0.424525
531,0.259588,0.268005,0.368946,0.556764,0.422768
532,0.258292,0.266029,0.366643,0.556088,0.422982
533,0.256335,0.263921,0.364919,0.555266,0.422762
534,0.254079,0.262172,0.362136,0.554062,0.422961
535,0.250957,0.258895,0.358255,0.548884,0.420441
536,0.249039,0.256226,0.355732,0.546677,0.419319
537,0.247242,0.254244,0.352665,0.543298,0.417754
538,0.245623,0.252887,0.351687,0.543684,0.419827
539,0.243489,0.251188,0.348906,0.54245,0.419509
540,0.241482,0.248351,0.345482,0.538475,0.41725
541,0.239702,0.246449,0.343734,0.536945,0.416808
542,0.238542,0.244525,0.341512,0.535758,0.416012
543,0.236885,0.242976,0.338649,0.533554,0.415329
544,0.23576,0.241788,0.337429,0.532271,0.415617
545,0.233793,0.239329,0.334457,0.530673,0.414616
546,0.232271,0.237619,0.332273,0.526784,0.413641
547,0.230866,0.236242,0.330652,0.526538,0.413078
548,0.229981,0.235177,0.330207,0.527601,0.414705
549,0.227685,0.233025,0.3260992,0.5219049,0.411173
550,0.226332,0.231365,0.323958,0.518957,0.409985
551,0.225451,0.230158,0.322358,0.518746,0.411068
552,0.224928,0.229801,0.321759,0.519601,0.412295
553,0.223005,0.227432,0.31935,0.51641,0.409973
554,0.22189,0.225783,0.316972,0.51383,0.408557
555,0.22078,0.224697,0.315098,0.512074,0.407954
556,0.220475,0.223934,0.314357,0.512798,0.409264
557,0.218921,0.221889,0.311505,0.508423,0.406457
558,0.2179,0.221369,0.310739,0.507004,0.406197
559,0.217025,0.21995,0.309256,0.505724,0.406091
560,0.216478,0.219503,0.308372,0.50613,0.406871
561,0.215751,0.218621,0.306804,0.50589,0.407725
562,0.214129,0.216424,0.303625,0.500003,0.403912
563,0.213724,0.215918,0.302619,0.499674,0.403584
564,0.213463,0.215302,0.30224,0.499457,0.404581
565,0.212273,0.214435,0.30007,0.497712,0.403525
566,0.211704,0.212733,0.298575,0.495504,0.40264
567,0.211196,0.213165,0.297462,0.496228,0.403887
568,0.211348,0.212135,0.296323,0.496415,0.404915
569,0.210878,0.211614,0.294479,0.495903,0.405168
570,0.210799,0.211191,0.293515,0.497508,0.406994
571,0.209514,0.209765,0.290719,0.493782,0.404927
572,0.208386,0.208016,0.288344,0.489312,0.402382
573,0.207178,0.206923,0.286578,0.485098,0.399917
574,0.209214,0.20876,0.287958,0.492348,0.405889
575,0.207613,0.206383,0.284663,0.486251,0.402017
576,0.205283,0.203907,0.2809913,0.477102,0.395291
577,0.208865,0.207425,0.284922,0.489288,0.404863
578,0.208699,0.206849,0.28362,0.488153,0.404734
579,0.204163,0.201792,0.276675,0.470285,0.390982
580,0.206262,0.203929,0.279024,0.474942,0.395026
581,0.210251,0.207767,0.283534,0.488153,0.405719
582,0.209195,0.206351,0.280677,0.485213,0.403631
583,0.202281,0.199105,0.271002,0.45984,0.383603
584,0.2047,0.201894,0.274782,0.463325,0.386227
585,0.21127,0.208178,0.282633,0.482893,0.401818
586,0.208583,0.20476,0.277694,0.471884,0.393225
587,0.208155,0.204571,0.276663,0.467485,0.38972
588,0.210522,0.206229,0.279195,0.471795,0.392926
589,0.208452,0.204124,0.276092,0.461747,0.384466
590,0.210881,0.206447,0.278934,0.465483,0.386947
591,0.212634,0.208268,0.281118,0.467379,0.387866
592,0.214447,0.209797,0.282584,0.47047,0.389883
593,0.217951,0.212978,0.28578,0.479398,0.396913
594,0.215225,0.209833,0.280956,0.467303,0.387087
595,0.216306,0.210872,0.282574,0.466512,0.385552
596,0.217639,0.212042,0.283988,0.467703,0.385668
597,0.218903,0.213636,0.285879,0.468385,0.385493
598,0.221893,0.216093,0.289316,0.474088,0.38933
599,0.224243,0.218707,0.291672,0.479582,0.393101
600,0.223136,0.217399,0.289872,0.474958,0.388614
601,0.223386,0.217821,0.290559,0.473313,0.387014
602,0.224344,0.218859,0.292138,0.473732,0.386447
603,0.226789,0.221358,0.295534,0.480208,0.390588
604,0.227905,0.222596,0.297354,0.483352,0.392839
605,0.2293,0.224106,0.299645,0.487466,0.395277
606,0.232783,0.227377,0.304759,0.498608,0.403231
607,0.231238,0.226091,0.303934,0.496225,0.400821
608,0.229909,0.22515,0.303173,0.493782,0.398654
609,0.227179,0.223174,0.300824,0.487911,0.394613
610,0.225426,0.221639,0.299463,0.485762,0.393052
611,0.222928,0.219439,0.297416,0.48332,0.391757
612,0.220752,0.217613,0.296143,0.481065,0.390517
613,0.220253,0.217164,0.296986,0.48482,0.393667
614,0.218215,0.215996,0.296009,0.486442,0.394946
615,0.216236,0.21421,0.294447,0.486556,0.395784
616,0.213416,0.211778,0.292386,0.48412,0.394774
617,0.210812,0.209592,0.290335,0.482653,0.394615
618,0.208597,0.207562,0.289137,0.484244,0.396409
619,0.205152,0.204455,0.286071,0.480125,0.39464
620,0.203639,0.203242,0.285758,0.482808,0.397448
621,0.200628,0.199869,0.282574,0.479734,0.396196
622,0.198196,0.197795,0.280697,0.479699,0.396691
623,0.195783,0.195744,0.278559,0.480056,0.398529
624,0.192288,0.19258,0.275107,0.476426,0.397835
625,0.189456,0.189878,0.272786,0.475061,0.397117
626,0.187019,0.187454,0.270491,0.473111,0.396995
627,0.185227,0.185581,0.268684,0.473496,0.399162
628,0.182781,0.183561,0.266626,0.471665,0.39904
629,0.180117,0.181258,0.264405,0.471298,0.399232
630,0.177673,0.179069,0.261812,0.469677,0.399296
631,0.174788,0.176325,0.258574,0.465795,0.397343
632,0.172543,0.17437,0.256522,0.463528,0.397282
633,0.170195,0.172046,0.253828,0.460742,0.396306
634,0.168232,0.170112,0.251409,0.459276,0.396161
635,0.166248,0.168116,0.249507,0.457254,0.395989
636,0.164545,0.166481,0.247125,0.455816,0.396375
637,0.162928,0.164877,0.245142,0.453363,0.395236
638,0.160911,0.163486,0.242743,0.450084,0.393865
639,0.160062,0.161885,0.241801,0.449082,0.394117
640,0.158387,0.160148,0.238968,0.446334,0.392182
641,0.157412,0.158814,0.237902,0.444195,0.392296
642,0.156261,0.157934,0.236451,0.442965,0.391002
643,0.155184,0.157102,0.234936,0.440944,0.390373
644,0.154306,0.156532,0.233728,0.439337,0.390136
645,0.154028,0.155549,0.232642,0.437664,0.389369
646,0.153895,0.155308,0.231907,0.43654,0.388482
647,0.153219,0.154703,0.231372,0.434862,0.3884242
648,0.153053,0.154608,0.230634,0.434719,0.388724
649,0.15277,0.154366,0.229949,0.433706,0.387671
650,0.153476,0.154643,0.229625,0.431649,0.386311
651,0.153899,0.154484,0.229988,0.431778,0.385448
652,0.154841,0.155617,0.231226,0.432847,0.385398
653,0.155702,0.156543,0.232267,0.433622,0.385419
654,0.156396,0.157337,0.23334,0.434559,0.385299
655,0.157522,0.158368,0.234385,0.435553,0.385729
656,0.158212,0.159383,0.235519,0.436472,0.38569
657,0.159216,0.1603183,0.236546,0.437268,0.385812
658,0.159964,0.16129,0.237775,0.437822,0.385786
659,0.161191,0.162301,0.238982,0.439018,0.385521
660,0.161932,0.16327,0.240143,0.439668,0.385686
661,0.1627631,0.164046,0.241128,0.440656,0.385567
662,0.163805,0.165264,0.242957,0.442429,0.385984
663,0.163765,0.166061,0.244592,0.444109,0.386422
664,0.162944,0.166104,0.245827,0.44662,0.387304
665,0.162666,0.166522,0.247243,0.449229,0.388258
666,0.161437,0.165955,0.247685,0.450497,0.388876
667,0.159716,0.16541,0.248863,0.452648,0.389643
668,0.157486,0.164546,0.249423,0.455888,0.391711
669,0.154852,0.163329,0.249893,0.457968,0.393157
670,0.151825,0.16089,0.24906,0.46045,0.394307
671,0.148187,0.158606,0.24831,0.463037,0.396721
672,0.144319,0.155805,0.247414,0.465063,0.399195
673,0.139484,0.15181,0.243932,0.46374,0.398835
674,0.134589,0.147503,0.241198,0.464359,0.400011
675,0.129512,0.143223,0.238494,0.464518,0.402854
676,0.12418,0.138569,0.234123,0.464168,0.403752
677,0.118922,0.133135,0.228943,0.46355,0.405046
678,0.113852,0.128133,0.223987,0.462431,0.406723
679,0.108467,0.123142,0.218501,0.458817,0.407624
680,0.103149,0.117636,0.212281,0.455186,0.40772
681,9.83E-02,0.112443,0.206622,0.45175,0.407956
682,9.38E-02,0.107679,0.201046,0.448413,0.408751
683,8.89E-02,0.102929,0.195089,0.444117,0.408683
684,0.0851167,9.85E-02,0.189294,0.440652,0.409981
685,8.13E-02,9.43E-02,0.183842,0.4369,0.410342
686,7.73E-02,9.02E-02,0.17825,0.430877,0.408844
687,7.37E-02,8.63E-02,0.172763,0.425626,0.408607
688,7.10E-02,8.30E-02,0.168481,0.42146,0.408406
689,0.0680286,7.98E-02,0.164178,0.416969,0.407826
690,6.51E-02,7.69E-02,0.159561,0.412293,0.407932
691,6.31E-02,7.41E-02,0.155371,0.407712,0.407887
692,6.02E-02,7.16E-02,0.15166,0.4027725,0.406611
693,5.81E-02,6.92E-02,0.147897,0.397518,0.405641
694,5.66E-02,6.73E-02,0.14475,0.394103,0.405628
695,5.47E-02,6.51E-02,0.141858,0.389412,0.404482
696,5.27E-02,0.0633477,0.138755,0.385556,0.404748
697,5.14E-02,0.061662,0.13571,0.382638,0.404964
698,4.97E-02,6.00E-02,0.133113,0.377684,0.403473
699,4.83E-02,5.84E-02,0.130788,0.373625,0.402571
700,4.76E-02,5.71E-02,0.128502,0.370364,0.402435
701,4.59E-02,5.53E-02,0.126447,0.366875,0.402063
702,4.46E-02,0.05424803,0.124405,0.363195,0.401197
703,4.39E-02,5.30E-02,0.122158,0.35993,0.400795
704,4.26E-02,5.19E-02,0.120474,0.356683,0.399568
705,4.20E-02,5.11E-02,0.118841,0.353534,0.399386
706,4.16E-02,5.01E-02,0.116993,0.350728,0.399247
707,4.04E-02,0.0491018,0.115365,0.348787,0.399867
708,3.94E-02,4.84E-02,0.113378,0.344339,0.397805
709,3.90E-02,4.69E-02,0.111844,0.340862,0.396398
710,3.81E-02,4.65E-02,0.110867,0.338593,0.396657
711,3.76E-02,4.55E-02,0.10918,0.335617,0.396044
712,3.72E-02,4.49E-02,0.107728,0.332188,0.394512
713,3.64E-02,4.43E-02,0.107127,0.330683,0.394818
714,3.59E-02,0.0438194,0.105398,0.328065,0.394418
715,3.50E-02,4.28E-02,0.103991,0.3248,0.393593
716,3.46E-02,4.24E-02,0.10354,0.322736,0.39264
717,3.46E-02,4.16E-02,0.101898,0.319946,0.392243
718,3.38E-02,4.12E-02,0.101387,0.318581,0.392524
719,3.35E-02,4.10E-02,0.100749,0.316323,0.392092
720,3.32E-02,4.03E-02,9.92E-02,0.313742,0.391519
721,3.27E-02,3.98E-02,9.87E-02,0.311498,0.391212
722,3.27E-02,3.95E-02,9.76E-02,0.309629,0.391019
723,3.21E-02,0.03894,9.66E-02,0.3071115,0.389941
724,3.17E-02,3.86E-02,9.60E-02,0.305723,0.389635
725,3.18E-02,0.0382514,9.47E-02,0.30325,0.38928
726,0.0309499,3.77E-02,9.45E-02,0.301371,0.389174
727,3.05E-02,3.73E-02,9.31E-02,0.299041,0.387853
728,3.08E-02,3.71E-02,9.27E-02,0.29684,0.387971
729,0.0301061,0.03669248,0.0920953,0.295673,0.387364
730,3.00E-02,3.63E-02,9.09E-02,0.293472,0.386624
731,2.98E-02,3.61E-02,9.04E-02,0.291893,0.38664
732,2.94E-02,3.53E-02,8.96E-02,0.289673,0.385368
733,2.98E-02,3.56E-02,0.0891546,0.28753,0.385731
734,0.0289515,3.48E-02,8.86E-02,0.286349,0.384984
735,2.90E-02,3.45E-02,8.74E-02,0.284248,0.384158
736,2.85E-02,3.42E-02,8.71E-02,0.281733,0.383827
737,2.83E-02,3.38E-02,8.64E-02,0.280542,0.382855
738,2.85E-02,3.38E-02,8.60E-02,0.278355,0.38199
739,2.79E-02,3.36E-02,8.56E-02,0.277456,0.382295
740,2.83E-02,3.34E-02,8.50E-02,0.275341,0.381835
741,2.76E-02,3.30E-02,8.45E-02,0.273027,0.380822
742,2.75E-02,0.0325723,8.39E-02,0.272018,0.3804805
743,2.77E-02,3.26E-02,8.35E-02,0.270419,0.380244
744,2.72E-02,0.0322218,8.32E-02,0.268706,0.37931
745,2.74E-02,3.21E-02,8.26E-02,0.267245,0.37955
746,2.68E-02,3.18E-02,8.22E-02,0.265575,0.379056
747,2.74E-02,3.17E-02,8.18E-02,0.264657,0.378651
748,0.0268953,3.17E-02,8.15E-02,0.262623,0.378142
749,2.66E-02,3.11E-02,8.08E-02,0.262016,0.377341
750,2.68E-02,3.10E-02,8.03E-02,0.260577,0.378185
751,2.63E-02,3.08E-02,7.98E-02,0.2588,0.377046
752,2.63E-02,3.05E-02,7.91E-02,0.257349,0.37679
753,2.57E-02,3.04E-02,7.89E-02,0.255635,0.375891
754,2.65E-02,3.01E-02,7.88E-02,0.25491,0.376339
755,2.56E-02,3.00E-02,0.0779647,0.252672,0.375456
756,2.58E-02,2.98E-02,7.80E-02,0.252686,0.375797
757,2.58E-02,2.96E-02,7.70E-02,0.251002,0.376149
758,2.55E-02,2.98E-02,7.68E-02,0.24996,0.374957
759,0.0255747,2.92E-02,0.07630552,0.247988,0.37478
760,0.0254546,2.93E-02,7.63E-02,0.24739,0.374788
761,2.54E-02,2.87E-02,7.52E-02,0.246161,0.374112
762,2.51E-02,2.90E-02,7.58E-02,0.244028,0.372998
763,2.54E-02,0.0286711,0.075411,0.243621,0.373317
764,2.48E-02,0.0286235,7.49E-02,0.241845,0.37312
765,0.0249128,2.84E-02,0.0744357,0.241377,0.372684
766,2.49E-02,2.80E-02,7.39E-02,0.239065,0.371414
767,0.0250434,0.028178,7.44E-02,0.238161,0.37085
768,2.49E-02,2.78E-02,0.0739475,0.237017,0.371315
769,2.49E-02,0.0281505,7.41E-02,0.236539,0.371207
770,2.48E-02,2.75E-02,7.30E-02,0.234525,0.370545
771,2.47E-02,2.78E-02,7.29E-02,0.233612,0.370073
772,2.44E-02,2.71E-02,7.23E-02,0.232586,0.369942
773,2.42E-02,2.72E-02,7.26E-02,0.230891,0.368591
774,2.44E-02,2.70E-02,7.22E-02,0.23032,0.369095
775,2.42E-02,2.71E-02,7.25E-02,0.228721,0.368043
776,2.44E-02,2.70E-02,0.071873,0.228168,0.368541
777,2.43E-02,2.68E-02,7.18E-02,0.226188,0.367685
778,2.42E-02,2.68E-02,7.14E-02,0.225974,0.368061
779,2.41E-02,2.67E-02,7.08E-02,0.224569,0.367986
780,2.40E-02,2.65E-02,7.08E-02,0.223991,0.367517
781,2.40E-02,2.63E-02,7.06E-02,0.222816,0.367459
782,0.0239584,2.61E-02,7.03E-02,0.221955,0.367579
783,2.40E-02,2.59E-02,6.98E-02,0.22043,0.365984
784,2.36E-02,2.61E-02,7.00E-02,0.219835,0.3663706
785,2.37E-02,2.58E-02,6.95E-02,0.21851,0.365407
786,2.36E-02,2.58E-02,6.98E-02,0.21771,0.365604
787,0.0235048,2.57E-02,0.0690708,0.216929,0.365258
788,0.023603,0.0257601,6.89E-02,0.215928,0.364981
789,2.33E-02,2.52E-02,6.82E-02,0.214558,0.364177
790,2.31E-02,2.55E-02,6.87E-02,0.213284,0.364092
791,2.32E-02,0.0251151,6.81E-02,0.212436,0.36332
792,2.31E-02,2.52E-02,6.85E-02,0.21157,0.363183
793,2.33E-02,2.51E-02,6.81E-02,0.210887,0.363056
794,2.32E-02,2.48E-02,6.77E-02,0.209988,0.362835
795,2.30E-02,2.48E-02,6.69E-02,0.209081,0.362174
796,2.32E-02,0.0248987,6.75E-02,0.207855,0.36233
797,2.30E-02,2.45E-02,6.72E-02,0.2067223,0.361165
798,2.27E-02,0.0244971,6.70E-02,0.205911,0.361489
799,2.29E-02,2.44E-02,6.64E-02,0.205123,0.36028
800,2.29E-02,2.45E-02,6.68E-02,0.203861,0.360728
801,2.28E-02,2.45E-02,6.65E-02,0.203336,0.360699
802,2.28E-02,2.44E-02,6.68E-02,0.202614,0.360091
803,2.25E-02,2.40E-02,6.58E-02,0.201116,0.358786
804,2.28E-02,2.44E-02,6.66E-02,0.200838,0.360208
805,2.24E-02,2.37E-02,6.53E-02,0.199275,0.358906
806,2.28E-02,2.42E-02,6.60E-02,0.199595,0.359548
807,2.24E-02,0.0236158,6.48E-02,0.198263,0.358565
808,2.27E-02,2.39E-02,6.52E-02,0.197859,0.358228
809,2.23E-02,2.36E-02,6.47E-02,0.196818,0.358214
810,2.23E-02,2.37E-02,6.51E-02,0.195818,0.358055
811,2.22E-02,2.29E-02,6.44E-02,0.194288,0.356711
812,2.22E-02,2.39E-02,6.52E-02,0.193971,0.357107
813,2.22E-02,2.29E-02,6.40E-02,0.192897,0.356804
814,2.21E-02,0.0234597,6.40E-02,0.192762,0.356509
815,2.20E-02,0.0231938,6.39E-02,0.191608,0.356362
816,2.17E-02,2.31E-02,6.39E-02,0.19031,0.355743
817,2.23E-02,2.32E-02,6.41E-02,0.189763,0.356071
818,2.15E-02,2.29E-02,6.31E-02,0.188547,0.354831
819,0.022303,2.27E-02,6.39E-02,0.188493,0.355519
820,2.18E-02,2.31E-02,6.32E-02,0.187485,0.354278
821,2.17E-02,2.27E-02,6.32E-02,0.18725,0.355127
822,2.13E-02,2.23E-02,6.27E-02,0.185776,0.354527
823,2.19E-02,2.29E-02,6.32E-02,0.185405,0.353648
824,2.16E-02,0.0222734,6.27E-02,0.183889,0.353583
825,2.19E-02,2.31E-02,6.31E-02,0.183913,0.353264
826,2.16E-02,2.21E-02,6.19E-02,0.182648,0.353324
827,2.13E-02,2.23E-02,6.27E-02,0.18196,0.352772
828,2.11E-02,2.21E-02,6.23E-02,0.181373,0.352877
829,2.12E-02,2.23E-02,6.14E-02,0.18052,0.351855
830,2.15E-02,2.23E-02,6.22E-02,0.180008,0.352045
831,2.11E-02,2.24E-02,6.15E-02,0.178731,0.351253
832,2.12E-02,0.0221954,6.23E-02,0.178674,0.35139
833,2.10E-02,2.18E-02,6.08E-02,0.176953,0.350559
834,2.12E-02,2.20E-02,6.13E-02,0.177007,0.350895
835,2.11E-02,2.19E-02,6.12E-02,0.176156,0.350764
836,0.0206465,2.20E-02,6.08E-02,0.175522,0.349339
837,2.14E-02,2.14E-02,6.14E-02,0.174883,0.349892
838,2.01E-02,2.15E-02,6.03E-02,0.173639,0.348279
839,2.12E-02,2.12E-02,6.09E-02,0.173114,0.349434
840,2.05E-02,2.13E-02,6.02E-02,0.172084,0.347762
841,2.08E-02,2.14E-02,6.04E-02,0.171721,0.348517
842,2.07E-02,2.09E-02,5.99E-02,0.17082,0.348152
843,1.99E-02,2.12E-02,0.0600533,0.169605,0.347053
844,2.10E-02,2.10E-02,6.01E-02,0.170318,0.348161
845,2.03E-02,2.16E-02,6.01E-02,0.168619,0.347394
846,2.07E-02,0.0212631,5.98E-02,0.168478,0.346655
847,1.98E-02,2.11E-02,5.94E-02,0.167509,0.346476
848,1.98E-02,2.11E-02,5.93E-02,0.167019,0.346495
849,2.06E-02,2.06E-02,5.94E-02,0.166616,0.346083
850,2.00E-02,2.14E-02,5.90E-02,0.165068,0.345949
851,2.04E-02,2.05E-02,5.90E-02,0.16496,0.345063
852,0.0194065,2.08E-02,5.90E-02,0.163723,0.345021
853,1.99E-02,2.06E-02,5.87E-02,0.163931,0.344993
854,2.00E-02,2.05E-02,0.058154,0.163368,0.345558
855,1.92E-02,2.05E-02,0.0577439,0.162326,0.344726
856,1.97E-02,0.0198711,5.81E-02,0.161949,0.343806
857,1.96E-02,2.10E-02,5.83E-02,0.161044,0.343908
858,1.98E-02,0.0200583,5.75E-02,0.160242,0.343493
859,1.99E-02,0.0205444,5.81E-02,0.159798,0.343831
860,1.96E-02,2.03E-02,5.79E-02,0.159082,0.342776
861,1.94E-02,0.0199554,5.74E-02,0.158764,0.343074
862,1.88E-02,2.06E-02,5.76E-02,0.157441,0.342603
863,0.0190982,0.01940118,5.70E-02,0.157071,0.341325
864,1.96E-02,2.08E-02,5.78E-02,0.156808,0.343045
865,1.87E-02,1.97E-02,5.71E-02,0.155627,0.341497
866,1.92E-02,2.03E-02,5.75E-02,0.155739,0.341022
867,1.91E-02,0.01989518,0.0564246,0.155359,0.341015
868,1.91E-02,2.00E-02,5.75E-02,0.153786,0.34058
869,1.87E-02,1.98E-02,5.58E-02,0.153883,0.340019
870,1.88E-02,2.01E-02,5.69E-02,0.152601,0.33955
871,1.88E-02,1.99E-02,5.60E-02,0.152145,0.340052
872,1.87E-02,0.0194999,5.61E-02,0.1517826,0.33989
873,1.86E-02,1.99E-02,5.64E-02,0.150075,0.338515
874,1.88E-02,1.86E-02,5.54E-02,0.150203,0.338503
875,1.84E-02,2.03E-02,5.69E-02,0.149765,0.338636
876,1.84E-02,1.92E-02,5.54E-02,0.14934,0.337721
877,1.84E-02,1.93E-02,5.52E-02,0.148426,0.338319
878,1.80E-02,1.92E-02,5.51E-02,0.147732,0.336869
879,1.83E-02,1.93E-02,5.52E-02,0.147522,0.337712
880,1.77E-02,1.92E-02,5.46E-02,0.146142,0.335419
881,0.0180516,1.92E-02,5.52E-02,0.146926,0.336298
882,1.81E-02,1.91E-02,5.44E-02,0.145215,0.336627
883,1.80E-02,1.90E-02,5.42E-02,0.144457,0.333857
884,1.77E-02,0.0196601,5.52E-02,0.14423,0.334333
885,0.01774886,1.85E-02,5.43E-02,0.143192,0.332612
886,0.0174697,1.94E-02,5.54E-02,0.142685,0.333563
887,1.77E-02,1.88E-02,0.054221,0.143079,0.334121
888,1.76E-02,1.89E-02,0.0548498,0.141543,0.33226
889,1.74E-02,1.85E-02,5.35E-02,0.141235,0.330664
890,0.0172925,1.87E-02,5.34E-02,0.140002,0.330726
891,1.66E-02,1.88E-02,0.05321591,0.139026,0.330507
892,1.81E-02,1.96E-02,5.48E-02,0.140086,0.331918
893,1.72E-02,1.80E-02,5.32E-02,0.138237,0.329569
894,1.70E-02,0.0184224,0.0529586,0.138432,0.331062
895,1.64E-02,1.84E-02,5.25E-02,0.136633,0.328564
896,1.77E-02,1.90E-02,5.34E-02,0.137341,0.330219
897,1.61E-02,1.84E-02,5.33E-02,0.135188,0.328167
898,1.78E-02,1.88E-02,5.31E-02,0.137355,0.329562
899,1.61E-02,1.75E-02,5.27E-02,0.134006,0.32778
900,1.70E-02,1.90E-02,0.0526344,0.135868,0.328635
901,1.65E-02,1.82E-02,5.21E-02,0.134381,0.328276
902,1.74E-02,1.88E-02,5.22E-02,0.135332,0.328165
903,0.0161192,1.83E-02,5.32E-02,0.132804,0.32654
904,1.76E-02,1.87E-02,5.23E-02,0.133473,0.324834
905,1.61E-02,1.82E-02,0.05208324,0.131879,0.326873
906,1.73E-02,1.87E-02,5.18E-02,0.132746,0.325771
907,1.60E-02,1.75E-02,5.14E-02,0.130753,0.325129
908,1.68E-02,1.86E-02,5.19E-02,0.130453,0.325522
909,0.0148564,1.76E-02,5.10E-02,0.129327,0.323203
910,1.66E-02,1.80E-02,5.08E-02,0.129701,0.324169
911,1.51E-02,0.0173898,5.13E-02,0.128517,0.323325
912,1.55E-02,1.74E-02,5.14E-02,0.128838,0.324043
913,1.61E-02,0.0190075,5.18E-02,0.12908,0.324646
914,1.63E-02,1.82E-02,5.13E-02,0.128292,0.32379
915,1.48E-02,1.79E-02,5.14E-02,0.127197,0.323306
916,1.69E-02,1.81E-02,5.18E-02,0.127227,0.324011
917,1.54E-02,1.80E-02,5.11E-02,0.126132,0.321641
918,1.66E-02,1.86E-02,5.15E-02,0.127048,0.324338
919,1.41E-02,1.73E-02,4.95E-02,0.125761,0.323058
920,1.73E-02,1.83E-02,5.16E-02,0.126202,0.323579
921,1.50E-02,1.77E-02,0.0504897,0.124722,0.322597
922,1.65E-02,1.87E-02,5.10E-02,0.125037,0.322941
923,1.53E-02,1.76E-02,4.95E-02,0.124374,0.321161
924,1.59E-02,1.80E-02,5.13E-02,0.123936,0.323432
925,1.42E-02,1.73E-02,4.90E-02,0.123109,0.321416
926,1.62E-02,1.84E-02,5.04E-02,0.123292,0.322789
927,1.47E-02,0.0173381,4.89E-02,0.12166,0.321005
928,1.63E-02,1.88E-02,5.02E-02,0.121672,0.3213
929,1.49E-02,1.79E-02,5.00E-02,0.123045,0.321856
930,1.68E-02,1.81E-02,5.21E-02,0.122732,0.32125
931,1.45E-02,1.76E-02,4.93E-02,0.121449,0.319673
932,1.66E-02,1.71E-02,0.0515641,0.120997,0.320676
933,1.46E-02,1.78E-02,4.91E-02,0.120025,0.319605
934,1.73E-02,1.88E-02,5.16E-02,0.120733,0.320646
935,1.41E-02,1.70E-02,4.80E-02,0.119896,0.318683
936,0.01666782,1.90E-02,5.17E-02,0.119509,0.32045
937,1.31E-02,1.62E-02,4.80E-02,0.117327,0.316939
938,1.70E-02,1.92E-02,5.03E-02,0.118776,0.320099
939,1.55E-02,1.82E-02,4.88E-02,0.118328,0.317405
940,0.016651,1.77E-02,5.06E-02,0.118213,0.318952
941,0.0137279,1.83E-02,4.92E-02,0.117405,0.315617
942,0.015826,0.0181327,4.86E-02,0.115951,0.316678
943,1.50E-02,1.86E-02,4.98E-02,0.117013,0.316211
944,1.56E-02,1.78E-02,4.94E-02,0.115838,0.314813
945,1.40E-02,1.76E-02,4.92E-02,0.114759,0.318515
946,1.58E-02,1.76E-02,4.94E-02,0.114959,0.315399
947,1.49E-02,0.0182866,4.93E-02,0.115196,0.317645
948,1.54E-02,1.83E-02,4.98E-02,0.115001,0.314116
949,1.52E-02,1.87E-02,4.93E-02,0.115188,0.316384
950,1.61E-02,1.77E-02,4.75E-02,0.115045,0.31459
951,1.50E-02,0.0177121,5.03E-02,0.11295,0.315121
952,1.51E-02,1.80E-02,4.80E-02,0.112945,0.310456
953,1.56E-02,1.91E-02,5.09E-02,0.112902,0.314343
954,1.36E-02,1.83E-02,4.82E-02,0.111583,0.312963
955,1.59E-02,1.88E-02,4.91E-02,0.112341,0.312257
956,1.37E-02,1.73E-02,0.0484536,0.112098,0.312264
957,1.68E-02,1.76E-02,4.92E-02,0.111254,0.313687
958,1.39E-02,1.80E-02,4.76E-02,0.109697,0.310241
959,1.52E-02,1.76E-02,4.93E-02,0.109123,0.310455
960,1.50E-02,1.98E-02,4.91E-02,0.109849,0.309724
961,1.46E-02,1.72E-02,4.80E-02,0.109146,0.309711
962,1.48E-02,1.96E-02,4.95E-02,0.109205,0.310514
963,1.45E-02,1.84E-02,4.77E-02,0.108227,0.306839
964,1.54E-02,1.74E-02,4.80E-02,0.107652,0.306793
965,1.48E-02,1.74E-02,4.77E-02,0.106868,0.308317
966,1.48E-02,1.89E-02,4.86E-02,0.10724,0.306151
967,1.47E-02,1.72E-02,4.77E-02,0.106167,0.305237
968,1.39E-02,1.71E-02,4.69E-02,0.104388,0.304966
969,1.46E-02,1.82E-02,4.66E-02,0.107415,0.307043
970,1.49E-02,1.54E-02,4.56E-02,0.103448,0.303905
971,0.0146731,1.87E-02,4.60E-02,0.105391,0.301598
972,1.26E-02,1.54E-02,4.71E-02,0.101912,0.301403
973,1.40E-02,0.020331,4.81E-02,0.104528,0.306854
974,0.0146594,1.72E-02,4.63E-02,0.105114,0.30287
975,1.48E-02,1.86E-02,4.84E-02,0.104981,0.304839
976,1.65E-02,1.84E-02,4.69E-02,0.103449,0.30046
977,1.25E-02,1.68E-02,4.80E-02,0.101675,0.304554
978,1.36E-02,1.69E-02,4.58E-02,0.101613,0.298866
979,1.42E-02,1.72E-02,4.70E-02,0.102222,0.301441
980,1.43E-02,1.92E-02,4.71E-02,0.103204,0.298041
981,1.31E-02,1.53E-02,4.42E-02,0.100889,0.298369
982,1.42E-02,1.94E-02,0.0471441,9.86E-02,0.299285
983,1.33E-02,1.60E-02,4.43E-02,9.84E-02,0.297157
984,1.46E-02,1.98E-02,4.59E-02,0.102184,0.299677
985,1.46E-02,1.91E-02,4.69E-02,0.103525,0.299156
986,1.34E-02,1.78E-02,4.62E-02,9.90E-02,0.298283
987,1.65E-02,0.0176229,4.64E-02,0.100313,0.298564
988,1.34E-02,1.61E-02,0.0442148,0.0961672,0.295353
989,1.66E-02,1.92E-02,4.74E-02,0.103267,0.297966
990,1.32E-02,1.50E-02,4.47E-02,9.58E-02,0.298098
991,1.39E-02,2.10E-02,4.78E-02,0.100402,0.29728
992,0.0148223,1.80E-02,4.52E-02,9.58E-02,0.293117
993,1.46E-02,1.76E-02,4.57E-02,9.54E-02,0.293929
994,1.38E-02,0.0158301,4.68E-02,9.65E-02,0.290971
995,0.012811,0.0152889,4.10E-02,9.63E-02,0.293238
996,1.32E-02,1.67E-02,4.76E-02,9.79E-02,0.298558
997,1.19E-02,1.61E-02,4.43E-02,0.0942467,0.2935
998,1.60E-02,1.81E-02,4.56E-02,9.67E-02,0.293599
999,1.09E-02,1.53E-02,4.24E-02,9.42E-02,0.29183
1000,1.14E-02,1.99E-02,4.35E-02,9.63E-02,0.290787
1001,0.0134666,1.56E-02,4.66E-02,9.40E-02,0.295995
1002,1.38E-02,2.00E-02,4.43E-02,9.46E-02,0.294136
1003,1.58E-02,1.94E-02,4.73E-02,9.65E-02,0.296881
1004,1.02E-02,1.45E-02,4.26E-02,9.45E-02,0.292446
1005,1.53E-02,2.08E-02,4.57E-02,9.50E-02,0.292453
1006,9.03E-03,1.49E-02,4.05E-02,9.26E-02,0.292845
1007,1.26E-02,1.48E-02,4.26E-02,9.21E-02,0.292503
1008,1.30E-02,1.71E-02,4.32E-02,9.31E-02,0.295023
1009,1.37E-02,1.42E-02,4.16E-02,0.0908842,0.293507
1010,1.33E-02,1.78E-02,4.57E-02,9.12E-02,0.29113
1011,1.24E-02,1.67E-02,0.0419844,9.17E-02,0.292423
1012,1.42E-02,1.97E-02,4.58E-02,9.31E-02,0.296907
1013,1.10E-02,1.68E-02,4.39E-02,9.27E-02,0.301695
1014,1.29E-02,1.85E-02,4.45E-02,9.45E-02,0.293564
1015,1.55E-02,1.80E-02,4.74E-02,9.53E-02,0.293881
1016,1.26E-02,1.63E-02,3.98E-02,9.13E-02,0.285283
1017,1.40E-02,0.0149094,4.59E-02,9.03E-02,0.290645
1018,1.69E-02,2.04E-02,4.06E-02,9.30E-02,0.293468
1019,0.0120362,1.90E-02,4.34E-02,9.01E-02,0.302149
1020,0.0154044,1.51E-02,4.43E-02,9.10E-02,0.28927
1021,0.0117846,1.30E-02,4.44E-02,8.95E-02,0.288064
1022,1.36E-02,1.78E-02,4.60E-02,9.53E-02,0.286978
1023,1.26E-02,1.45E-02,4.41E-02,8.87E-02,0.293117
1024,1.66E-02,2.03E-02,4.25E-02,9.06E-02,0.295594
1025,1.48E-02,1.72E-02,4.32E-02,9.08E-02,0.295491
1026,9.76E-03,1.08E-02,3.70E-02,8.47E-02,0.289485
1027,1.58E-02,2.12E-02,4.46E-02,8.85E-02,0.292075
1028,9.99E-03,1.50E-02,4.24E-02,8.82E-02,0.293545
1029,9.63E-03,1.70E-02,4.27E-02,8.83E-02,0.292159
1030,9.89E-03,1.50E-02,4.34E-02,8.78E-02,0.288645
1031,1.00E-02,1.06E-02,3.90E-02,8.14E-02,0.286446
1032,1.37E-02,1.84E-02,0.0424277,8.82E-02,0.29157
1033,1.70E-02,1.56E-02,4.50E-02,8.81E-02,0.297225
1034,8.94E-03,1.21E-02,4.32E-02,8.52E-02,0.288946
1035,1.14E-02,1.71E-02,4.68E-02,0.0886221,0.291111
1036,8.06E-03,1.45E-02,4.38E-02,9.20E-02,0.28862
1037,1.31E-02,1.77E-02,0.0363853,8.58E-02,0.296215
1038,1.18E-02,1.36E-02,4.05E-02,8.89E-02,0.291299
1039,1.18E-02,1.54E-02,4.02E-02,8.43E-02,0.287409
1040,1.41E-02,1.98E-02,4.19E-02,0.0850431,0.296253
1041,1.26E-02,1.53E-02,4.10E-02,9.12E-02,0.282903
1042,1.26E-02,1.32E-02,3.97E-02,7.82E-02,0.281695
1043,1.08E-02,1.42E-02,4.10E-02,8.57E-02,0.289468
1044,1.06E-02,1.74E-02,4.70E-02,8.36E-02,0.283096
1045,8.21E-03,0.0173367,3.95E-02,8.76E-02,0.287386
1046,6.77E-03,1.69E-02,3.98E-02,8.38E-02,0.283745
1047,1.68E-02,2.10E-02,0.0467349,8.27E-02,0.292889
1048,9.44E-03,1.46E-02,4.26E-02,8.05E-02,0.284861
1049,1.70E-02,0.0206284,3.98E-02,8.36E-02,0.281659
1050,6.12E-03,1.16E-02,4.34E-02,8.23E-02,0.29077
1051,8.45E-04,9.13E-03,3.70E-02,7.63E-02,0.274942
1052,1.51E-02,1.84E-02,4.94E-02,0.0890118,0.293999
1053,1.14E-02,1.87E-02,0.0351423,7.70E-02,0.291181
1054,1.17E-02,1.44E-02,0.0463826,8.42E-02,0.287738
1055,1.66E-02,2.26E-02,4.76E-02,8.85E-02,0.281181
1056,3.34E-03,0.0129731,3.78E-02,8.12E-02,0.282622
1057,1.06E-02,0.0144951,4.06E-02,8.59E-02,0.286968
1058,2.15E-02,0.0237755,4.15E-02,9.57E-02,0.285998
1059,1.08E-02,2.17E-03,4.03E-02,7.85E-02,0.280893
1060,1.57E-02,1.96E-02,4.26E-02,8.63E-02,0.294419
1061,2.59E-03,0.0124692,3.86E-02,8.38E-02,0.267194
1062,1.55E-02,7.96E-03,3.89E-02,8.54E-02,0.285444
1063,1.22E-02,0.020381,3.80E-02,0.0769359,0.278176
1064,1.19E-02,1.37E-02,3.62E-02,8.14E-02,0.283205
1065,1.50E-02,1.30E-02,3.66E-02,7.63E-02,0.279107
1066,1.23E-02,2.09E-02,4.25E-02,8.24E-02,0.29035
1067,7.53E-03,2.10E-03,2.94E-02,8.35E-02,0.277674
1068,1.77E-02,2.83E-02,4.50E-02,8.64E-02,0.290108
1069,1.67E-02,2.14E-02,4.94E-02,8.68E-02,0.287909
1070,1.79E-02,2.18E-02,4.34E-02,0.0848573,0.275479
1071,1.30E-02,2.51E-02,4.11E-02,8.47E-02,0.290559
1072,1.82E-02,2.04E-02,4.26E-02,7.23E-02,0.27931
1073,1.35E-02,1.66E-02,4.51E-02,9.27E-02,0.279985
1074,1.65E-02,5.98E-03,4.06E-02,7.18E-02,0.263835
1075,2.13E-02,2.32E-02,3.85E-02,8.54E-02,0.293179
1076,1.37E-02,1.39E-02,0.0466643,0.074077,0.28565
1077,0.0112037,2.00E-02,0.0510685,8.87E-02,0.285188
1078,7.77E-03,1.42E-02,3.94E-02,7.61E-02,0.262577
1079,1.84E-02,0.0110938,4.92E-02,8.86E-02,0.277829
1080,1.32E-02,1.93E-02,4.72E-02,8.31E-02,0.271209
1081,2.26E-02,2.30E-02,5.33E-02,0.103476,0.285646
1082,1.33E-02,2.78E-02,0.0516438,8.66E-02,0.282938
1083,0.0174838,1.84E-02,4.11E-02,7.47E-02,0.27517
1084,8.58E-03,2.48E-02,4.68E-02,8.36E-02,0.287326
1085,0.0138831,8.21E-03,3.34E-02,8.15E-02,0.282356
1086,2.35E-02,3.32E-02,4.71E-02,8.75E-02,0.281038
1087,1.33E-02,1.90E-02,4.87E-02,9.18E-02,0.292104
1088,6.81E-03,1.10E-02,3.34E-02,5.82E-02,0.265881
1089,1.58E-02,3.08E-02,4.98E-02,0.0946601,0.292051
1090,1.48E-02,2.29E-02,3.02E-02,8.13E-02,0.278999
1091,2.11E-02,1.58E-02,6.12E-02,7.57E-02,0.308906
1092,4.22E-03,3.20E-02,3.60E-02,7.87E-02,0.247684
1093,2.67E-02,2.85E-02,6.13E-02,9.11E-02,0.312689
1094,1.11E-02,3.62E-02,4.93E-02,9.14E-02,0.273703
1095,9.95E-03,-1.32E-03,3.82E-02,7.25E-02,0.273514
1096,4.10E-03,-5.48E-03,4.56E-02,7.51E-02,0.2618738
1097,2.58E-02,1.63E-02,4.42E-02,9.09E-02,0.298361
1098,-4.23E-03,-4.90E-04,0.0358752,7.80E-02,0.27104
1099,1.40E-02,2.18E-02,5.74E-02,7.62E-02,0.258384
1100,1.21E-02,1.32E-02,0.0363488,7.58E-02,0.267915